timestamp,IMU_acc_x,IMU_acc_y,IMU_acc_z
0:00:00.000760,-15,59,1020
0:00:00.000978,-5,58,1012
0:00:00.001055,-5,51,1008
0:00:00.001125,-15,66,1016
0:00:00.001354,-15,63,1012
0:00:00.001444,-14,54,1007
0:00:00.004035,-2,52,1008
0:00:00.007137,-15,70,1017
0:00:00.015370,-19,58,1009
0:00:00.020388,-10,60,1008
0:00:00.027521,-8,53,1015
0:00:00.034766,-12,59,1014
0:00:00.041471,-11,68,1010
0:00:00.049781,-13,48,1015
0:00:00.055494,-8,57,1007
0:00:00.062268,-12,65,1012
0:00:00.069690,-13,61,1015
0:00:00.076350,-13,59,1009
0:00:00.084670,-14,67,1020
0:00:00.090411,-15,59,1009
0:00:00.097822,-11,60,1010
0:00:00.105460,-16,51,1009
0:00:00.111420,-19,60,1017
0:00:00.122254,-9,55,1013
0:00:00.126344,-11,69,1005
0:00:00.133515,-14,48,1004
0:00:00.145583,-18,60,1013
0:00:00.146257,-8,56,1008
0:00:00.160310,-17,45,1009
0:00:00.165351,-13,54,1015
0:00:00.167389,-14,64,1007
0:00:00.180278,-9,52,1013
0:00:00.181320,-12,52,1014
0:00:00.190249,-23,58,1008
0:00:00.197254,-10,52,1012
0:00:00.202239,-14,57,1017
0:00:00.210459,-8,63,1007
0:00:00.219752,-11,62,1015
0:00:00.229689,-17,54,1009
0:00:00.237680,-14,54,1017
0:00:00.241062,-5,61,1007
0:00:00.250219,-11,63,1006
0:00:00.254947,-16,55,1012
0:00:00.264666,-21,61,1020
0:00:00.274648,-19,62,1023
0:00:00.285439,-17,68,1000
0:00:00.287225,-12,55,1008
0:00:00.287461,-11,52,1013
0:00:00.297471,-12,57,1007
0:00:00.300283,-11,63,1015
0:00:00.309384,-18,57,1008
0:00:00.315024,-9,51,1014
0:00:00.321493,-14,52,1009
0:00:00.334076,-13,53,1006
0:00:00.335631,-5,58,1015
0:00:00.349732,-9,61,1010
0:00:00.354250,-9,60,1015
0:00:00.357053,-15,56,1007
0:00:00.365561,-21,59,1008
0:00:00.370298,-10,56,1008
0:00:00.379199,-9,53,1005
0:00:00.384262,-7,55,1011
0:00:00.396301,-16,56,1016
0:00:00.401072,-16,59,1013
0:00:00.409183,-11,52,1017
0:00:00.419213,-23,62,1007
0:00:00.419655,-11,62,1009
0:00:00.433329,-16,57,1010
0:00:00.433401,-3,59,1010
0:00:00.440284,-11,56,1017
0:00:00.451094,-19,57,1017
0:00:00.454306,-10,62,1008
0:00:00.468468,-11,55,1012
0:00:00.473707,-20,56,1009
0:00:00.476179,-10,61,1007
0:00:00.485018,-20,59,1010
0:00:00.489408,-8,59,1000
0:00:00.506347,-13,53,1016
0:00:00.508261,-15,63,1018
0:00:00.510272,-12,54,1016
0:00:00.518446,-13,54,993
0:00:00.528047,-20,57,1017
0:00:00.533305,-19,60,1010
0:00:00.538443,-20,56,1007
0:00:00.552607,-11,59,1024
0:00:00.552980,-5,49,1009
0:00:00.560235,-12,66,1006
0:00:00.569881,-15,65,1020
0:00:00.573444,-10,62,1010
0:00:00.587290,-11,58,1013
0:00:00.588082,-19,61,1015
0:00:00.595173,-7,58,1006
0:00:00.608090,-17,55,1014
0:00:00.611906,-12,56,1004
0:00:00.621845,-11,55,1008
0:00:00.627019,-18,58,1012
0:00:00.636617,-9,61,1016
0:00:00.647165,-13,60,1015
0:00:00.656488,-14,53,1007
0:00:00.661124,-17,58,1014
0:00:00.666261,-20,54,1020
0:00:00.666328,-12,57,1008
0:00:00.671441,-17,57,1007
0:00:00.678296,-5,58,1007
0:00:00.691215,-11,57,1003
0:00:00.696277,-15,60,1012
0:00:00.706222,-13,65,1012
0:00:00.706417,-10,61,1017
0:00:00.717237,-13,55,1013
0:00:00.727268,-13,53,1008
0:00:00.733834,-19,58,1010
0:00:00.741158,-13,62,1014
0:00:00.741607,-19,62,1022
0:00:00.748413,-9,57,1015
0:00:00.758374,-16,65,1018
0:00:00.765610,-19,58,1020
0:00:00.780172,-8,62,1014
0:00:00.785062,-11,64,1007
0:00:00.790068,-7,52,1007
0:00:00.800517,-5,64,1003
0:00:00.802610,-12,54,1018
0:00:00.805638,-9,61,1004
0:00:00.812038,-22,59,1016
0:00:00.820072,-16,55,1013
0:00:00.829799,-15,64,1017
0:00:00.832338,-7,52,1009
0:00:00.839772,-11,58,1009
0:00:00.847376,-18,54,1013
0:00:00.859311,-21,60,999
0:00:00.860311,-13,47,1018
0:00:00.869526,-14,58,1001
0:00:00.874834,-15,57,1009
0:00:00.881444,-12,59,1017
0:00:00.889594,-21,63,1008
0:00:00.896183,-15,63,1010
0:00:00.904199,-12,57,1018
0:00:00.912107,-12,56,1001
0:00:00.958688,-8,56,1010
0:00:00.958774,-4,65,1018
0:00:00.958824,-8,55,1013
0:00:00.958872,-17,67,1017
0:00:00.979891,-14,57,1017
0:00:00.980148,-9,57,1012
0:00:00.980204,-14,54,1015
0:00:00.990127,-11,53,1011
0:00:00.990200,-16,54,1015
0:00:00.990245,-7,63,1018
0:00:00.990289,-17,62,1013
0:00:01.020625,-11,57,1015
0:00:01.020743,-12,53,1008
0:00:01.020800,-9,56,1006
0:00:01.020853,-10,50,1009
0:00:01.045464,-20,63,1007
0:00:01.045604,-12,60,1012
0:00:01.045973,-10,57,1001
0:00:01.046023,-15,58,1013
0:00:01.050697,-12,52,1013
0:00:01.056311,-15,62,1008
0:00:01.069436,-14,57,1016
0:00:01.070280,-16,55,1009
0:00:01.112451,-14,66,1008
0:00:01.117675,-11,59,1012
0:00:01.117743,-14,57,1012
0:00:01.117850,-10,63,999
0:00:01.118097,-17,59,1017
0:00:01.118157,-13,51,1011
0:00:01.120577,-15,57,1009
0:00:01.127432,-6,57,1008
0:00:01.140451,-4,53,1009
0:00:01.142367,-18,56,1017
0:00:01.147607,-6,58,1014
0:00:01.155464,-24,60,1010
0:00:01.167722,-8,51,1003
0:00:01.168363,-14,59,1021
0:00:01.175399,-19,57,1017
0:00:01.197086,-13,61,1012
0:00:01.197631,-16,61,1010
0:00:01.197901,-18,57,1009
0:00:01.203459,-15,56,1007
0:00:01.217363,-12,66,1008
0:00:01.217607,-8,64,1016
0:00:01.224382,-9,54,1000
0:00:01.231712,-16,59,1015
0:00:01.238416,-16,63,1010
0:00:01.249020,-9,64,1011
0:00:01.252393,-19,58,1009
0:00:01.259510,-13,60,1007
0:00:01.266824,-23,61,1002
0:00:01.273440,-5,58,1013
0:00:01.298965,-13,53,1010
0:00:01.299048,-15,51,1015
0:00:01.299096,-14,55,1013
0:00:01.307621,-12,62,1010
0:00:01.308334,-15,58,1007
0:00:01.316883,-15,62,1002
0:00:01.322615,-14,51,1017
0:00:01.329660,-15,52,1010
0:00:01.336782,-9,54,1013
0:00:01.343449,-19,70,1011
0:00:01.353463,-11,51,1016
0:00:01.360218,-11,56,1016
0:00:01.381257,-6,58,1008
0:00:01.381943,-9,57,1009
0:00:01.382002,0,58,1012
0:00:01.396386,-20,59,1004
0:00:01.397369,-18,53,998
0:00:01.401630,-15,55,1015
0:00:01.406322,-11,50,1014
0:00:01.413475,-22,62,1017
0:00:01.421337,-15,66,1012
0:00:01.427520,-18,61,1017
0:00:01.435612,-18,56,1012
0:00:01.442148,-6,62,1010
0:00:01.450645,-14,62,1013
0:00:01.461279,-14,55,998
0:00:01.479720,-19,63,1023
0:00:01.480058,-13,56,1015
0:00:01.480326,-9,58,1010
0:00:01.484767,-15,53,1014
0:00:01.490415,-18,69,1004
0:00:01.516775,-10,55,1008
0:00:01.522395,-11,53,1011
0:00:01.522465,-18,61,1009
0:00:01.522511,-11,46,1011
0:00:01.526910,-12,54,1008
0:00:01.532356,-8,57,1014
0:00:01.539518,-20,62,994
0:00:01.547488,-13,58,1012
0:00:01.554183,-20,59,1011
0:00:01.567599,-21,66,1008
0:00:01.567671,-13,51,998
0:00:01.649306,-20,50,1009
0:00:01.651994,-16,56,1009
0:00:01.652078,-24,59,1012
0:00:01.652144,-19,48,1007
0:00:01.652192,-18,59,1012
0:00:01.652242,-19,55,1017
0:00:01.652288,-22,62,1011
0:00:01.652333,-13,56,1018
0:00:01.652379,-15,58,1011
0:00:01.652424,-12,58,1002
0:00:01.652467,-5,62,1017
0:00:01.652510,-16,59,1010
0:00:01.681667,-7,57,1032
0:00:01.681851,-16,52,1016
0:00:01.681904,-10,69,1011
0:00:01.681949,-10,62,1007
0:00:01.687494,-18,63,1002
0:00:01.693803,-7,52,1015
0:00:01.700551,-10,50,1022
0:00:01.707507,-14,65,1008
0:00:01.715066,-7,53,1021
0:00:01.721504,-19,58,1017
0:00:01.728361,-11,62,1013
0:00:01.737072,-15,54,1002
0:00:01.743407,-13,54,1003
0:00:01.749562,-11,59,1010
0:00:01.757823,-11,63,997
0:00:01.766505,-12,58,1010
0:00:01.771849,-12,64,1009
0:00:01.777537,-12,64,1014
0:00:01.784298,-11,61,1008
0:00:01.792510,-15,60,1003
0:00:01.798346,-9,60,1015
0:00:01.813725,-15,54,1010
0:00:01.814280,-11,50,1000
0:00:01.819493,-11,58,1012
0:00:01.842250,-7,48,1012
0:00:01.842947,-12,52,1001
0:00:01.843007,-5,54,1009
0:00:01.848352,-10,58,1008
0:00:01.855326,-11,59,1015
0:00:01.889488,-12,62,1022
0:00:01.890405,-10,61,1005
0:00:01.890473,-12,58,1017
0:00:01.890520,-12,61,1017
0:00:01.890565,-19,59,1016
0:00:01.896542,-12,55,999
0:00:01.913054,-13,53,1007
0:00:01.913542,-15,62,1020
0:00:01.917601,-14,56,1007
0:00:01.927362,-8,64,1017
0:00:01.932356,-6,54,1007
0:00:01.942517,-11,60,1008
0:00:01.947359,-7,65,1013
0:00:01.952666,-16,59,1013
0:00:01.959668,-11,61,1012
0:00:01.966384,-15,57,1016
0:00:01.983734,-15,58,1015
0:00:01.984203,-11,67,1007
0:00:01.990773,-5,47,1016
0:00:01.998498,-18,56,1016
0:00:02.004156,-9,63,1007
0:00:02.009611,-11,55,1005
0:00:02.015526,-15,60,1009
0:00:02.044865,-7,55,1012
0:00:02.044983,-19,57,1004
0:00:02.045035,-21,46,1010
0:00:02.047510,-13,60,1021
0:00:02.067489,-15,62,1001
0:00:02.067789,-13,62,1010
0:00:02.067842,-17,54,1002
0:00:02.071649,-17,55,1011
0:00:02.078432,-22,57,1001
0:00:02.086303,-15,63,1007
0:00:02.092442,-11,58,1015
0:00:02.103412,-14,50,1019
0:00:02.109267,-15,58,1011
0:00:02.115478,-9,58,1013
0:00:02.120453,-20,60,1019
0:00:02.127547,-9,57,1011
0:00:02.134433,-9,64,1011
0:00:02.142430,-15,66,1001
0:00:02.151547,-12,59,1009
0:00:02.157482,-17,55,1009
0:00:02.162582,-14,61,1008
0:00:02.169502,-8,62,1002
0:00:02.178292,-20,59,1008
0:00:02.183598,-5,59,1016
0:00:02.190378,-7,49,995
0:00:02.198254,-18,53,1014
0:00:02.205093,-14,60,1004
0:00:02.220452,-14,58,1008
0:00:02.220545,-20,58,1010
0:00:02.226179,-25,50,1023
0:00:02.234937,-10,57,1000
0:00:02.240243,-12,58,1018
0:00:02.248562,-12,57,1012
0:00:02.253715,-18,54,1004
0:00:02.261332,-15,60,1003
0:00:02.272160,-20,61,1011
0:00:02.274731,-22,59,1005
0:00:02.281513,-5,66,1010
0:00:02.289508,-23,55,1009
0:00:02.295590,-10,57,1017
0:00:02.304186,-21,63,1000
0:00:02.309633,-21,66,1015
0:00:02.319680,-9,60,1011
0:00:02.330423,-18,61,1003
0:00:02.331307,-16,62,1017
0:00:02.339547,-23,56,1008
0:00:02.346396,-17,59,1014
0:00:02.353617,-20,58,1012
0:00:02.367407,-13,57,1008
0:00:02.367635,-12,56,1010
0:00:02.372494,-12,56,1007
0:00:02.379613,-19,57,1003
0:00:02.387409,-11,56,1010
0:00:02.393533,-13,66,1004
0:00:02.401417,-9,53,1018
0:00:02.407643,-11,55,1012
0:00:02.416623,-14,64,1013
0:00:02.430206,-8,57,1010
0:00:02.430438,-3,64,1011
0:00:02.437441,-9,61,1009
0:00:02.442434,-14,56,1008
0:00:02.452044,-13,60,1011
0:00:02.458487,-12,56,1012
0:00:02.465601,-9,52,1014
0:00:02.471489,-20,65,1007
0:00:02.477610,-14,56,1008
0:00:02.484429,-9,54,1016
0:00:02.491929,-13,59,1011
0:00:02.500720,-12,56,1007
0:00:02.512245,-17,54,1012
0:00:02.539578,-4,57,1009
0:00:02.541644,-12,65,1020
0:00:02.541717,-9,61,1017
0:00:02.541765,-15,58,1010
0:00:02.550837,-11,61,1018
0:00:02.551139,-7,52,1013
0:00:02.554998,-11,51,1007
0:00:02.562307,-18,63,1001
0:00:02.568412,-15,49,1013
0:00:02.577510,-11,60,1012
0:00:02.596809,-14,56,1008
0:00:02.607575,-9,61,1011
0:00:02.607902,-16,50,1016
0:00:02.607957,-14,60,1010
0:00:02.619480,-11,59,1009
0:00:02.631366,-15,55,1019
0:00:02.638249,-10,54,1025
0:00:02.641098,-15,55,1014
0:00:02.641290,-4,62,1008
0:00:02.648296,-17,58,1016
0:00:02.653048,-23,58,1018
0:00:02.676920,-17,63,1009
0:00:02.677436,-21,61,1007
0:00:02.677494,-20,58,1020
0:00:02.697402,-13,58,1004
0:00:02.708600,-9,55,1008
0:00:02.708733,-14,58,1008
0:00:02.708784,-11,58,1017
0:00:02.708831,-15,63,1016
0:00:02.718384,-11,60,1002
0:00:02.749444,-19,66,1015
0:00:02.749839,-8,51,1012
0:00:02.749890,-8,57,1011
0:00:02.749937,-19,68,1014
0:00:02.767480,-9,54,1000
0:00:02.767775,-9,71,1010
0:00:02.767828,-15,67,1017
0:00:02.786211,-13,61,1009
0:00:02.788656,-12,64,1015
0:00:02.788980,-15,60,1015
0:00:02.798378,-13,64,1020
0:00:02.799506,-18,54,1012
0:00:02.813852,-13,57,1003
0:00:02.814155,-16,50,1012
0:00:02.829373,-9,53,1008
0:00:02.829922,-5,65,1009
0:00:02.836120,-10,56,1009
0:00:02.843414,-11,55,1013
0:00:02.858429,-18,57,1009
0:00:02.858662,-15,57,1012
0:00:02.869364,-19,56,1015
0:00:02.869836,-13,63,1011
0:00:02.876344,-13,58,1014
0:00:02.885128,-15,59,1004
0:00:02.890471,-6,64,1000
0:00:02.899413,-13,62,1009
0:00:02.913448,-16,54,1015
0:00:02.913693,-12,52,1017
0:00:02.942808,-12,61,1008
0:00:02.948549,-21,67,1016
0:00:02.959992,-11,60,1006
0:00:02.962840,-5,58,1012
0:00:02.965137,-15,62,1010
0:00:02.965302,-13,59,1007
0:00:02.965355,-11,50,1011
0:00:02.967590,-16,67,1013
0:00:02.974814,-16,53,1012
0:00:02.981587,-11,62,1005
0:00:02.990254,-8,55,1017
0:00:02.995612,-11,60,1015
0:00:03.002504,-9,57,1008
0:00:03.009571,-5,62,1015
0:00:03.025431,-9,64,1008
0:00:03.025657,-13,62,1016
0:00:03.030410,-12,65,1015
0:00:03.044796,-16,59,1016
0:00:03.054045,-9,58,1009
0:00:03.054390,-16,49,1012
0:00:03.058487,-23,58,1021
0:00:03.067808,-11,57,1018
0:00:03.072464,-11,59,1020
0:00:03.081622,-14,51,1010
0:00:03.086414,-13,54,1009
0:00:03.093553,-16,58,1015
0:00:03.101393,-18,64,1022
0:00:03.110067,-18,63,1008
0:00:03.121344,-12,63,1014
0:00:03.122463,-14,63,1014
0:00:03.137396,-17,55,1012
0:00:03.139647,-13,52,1013
0:00:03.148932,-11,55,1007
0:00:03.158700,-16,57,1017
0:00:03.170368,-12,61,1001
0:00:03.171014,1,54,1012
0:00:03.177046,-6,63,1017
0:00:03.186418,-11,59,1002
0:00:03.186705,-20,57,1012
0:00:03.191611,-17,55,1009
0:00:03.198467,-12,68,1008
0:00:03.210342,-12,58,1005
0:00:03.212499,-17,55,1001
0:00:03.220280,-25,66,1018
0:00:03.235507,-11,64,1011
0:00:03.247435,-12,63,1016
0:00:03.250271,-9,59,1014
0:00:03.250448,-9,61,1009
0:00:03.255703,-3,68,1012
0:00:03.261673,-17,60,1018
0:00:03.271759,-11,58,1015
0:00:03.279460,-9,59,1010
0:00:03.289676,-7,54,1012
0:00:03.299667,-14,60,1007
0:00:03.300052,-14,63,1009
0:00:03.309373,-15,52,1007
0:00:03.311560,-22,58,1017
0:00:03.340435,-14,51,995
0:00:03.340824,-18,53,1010
0:00:03.345444,-6,55,1015
0:00:03.347569,-16,55,1011
0:00:03.347808,-12,61,1004
0:00:03.358364,-9,52,1004
0:00:03.368891,-15,58,1004
0:00:03.387267,-6,62,1016
0:00:03.390155,-23,62,1002
0:00:03.390713,-19,54,1017
0:00:03.395067,-13,61,1015
0:00:03.395616,-10,57,1014
0:00:03.409523,0,57,1017
0:00:03.412288,-19,68,1010
0:00:03.421802,-13,51,1013
0:00:03.422506,-9,59,1010
0:00:03.429566,-9,60,1008
0:00:03.457299,-9,62,1013
0:00:03.459603,-10,55,1017
0:00:03.459939,-24,57,1019
0:00:03.460190,-12,56,1000
0:00:03.464494,-16,62,1019
0:00:03.471609,-21,69,1010
0:00:03.478533,-12,64,1002
0:00:03.485561,-20,62,1008
0:00:03.492923,-8,58,1001
0:00:03.499634,-8,58,1007
0:00:03.510357,-8,57,1008
0:00:03.521223,-15,62,1015
0:00:03.522443,-17,56,1019
0:00:03.528216,-24,60,1025
0:00:03.557680,-17,48,1008
0:00:03.558088,-11,66,1017
0:00:03.558265,-9,54,1008
0:00:03.558378,-11,56,1017
0:00:03.562541,-2,59,1009
0:00:03.571605,-12,62,1019
0:00:03.586458,-15,62,1009
0:00:03.586735,-17,59,1008
0:00:03.600602,-7,50,1021
0:00:03.600773,-10,62,1013
0:00:03.604528,-14,64,1007
0:00:03.611663,-15,64,1012
0:00:03.618902,-12,59,1013
0:00:03.627171,-19,62,1021
0:00:03.649991,-6,62,1013
0:00:03.662242,-6,61,1009
0:00:03.662667,-23,62,1012
0:00:03.662959,-12,60,1007
0:00:03.670408,-19,62,1009
0:00:03.671586,-7,55,1011
0:00:03.685222,-15,61,1024
0:00:03.687135,-11,60,1019
0:00:03.688604,-16,60,1010
0:00:03.697096,-20,59,1019
0:00:03.702542,-13,55,1012
0:00:03.712416,-13,64,1012
0:00:03.773355,-9,57,1012
0:00:03.775180,-16,57,1002
0:00:03.776465,-4,67,1003
0:00:03.776725,-13,63,1011
0:00:03.779059,-13,47,1007
0:00:03.781563,-18,57,1007
0:00:03.783671,-13,58,1011
0:00:03.789942,-13,52,1017
0:00:03.790961,-10,57,1001
0:00:03.791441,-16,63,1009
0:00:03.793320,-21,53,1016
0:00:03.800162,-7,53,1012
0:00:03.803907,-10,59,1017
0:00:03.807711,-13,58,1023
0:00:03.817329,-18,55,1019
0:00:03.822148,-9,59,1010
0:00:03.828501,-15,53,1000
0:00:03.843413,-7,57,1012
0:00:03.843844,-9,56,1018
0:00:03.855696,-11,55,1019
0:00:03.856520,-10,61,1018
0:00:03.864662,-15,53,1017
0:00:03.870500,-15,68,1015
0:00:03.879132,-4,68,997
0:00:03.884508,-15,58,1016
0:00:03.893635,-10,64,1010
0:00:03.898803,-18,59,1024
0:00:03.914332,-18,60,1013
0:00:03.922288,-17,57,1002
0:00:03.932784,-14,58,1009
0:00:03.937597,-4,54,1019
0:00:03.937972,-20,57,1016
0:00:03.947615,-7,53,1024
0:00:03.949709,-16,59,997
0:00:03.963389,-13,61,1016
0:00:03.963611,-9,57,1007
0:00:03.968552,-7,57,1014
0:00:03.975612,-11,59,1014
0:00:03.984222,-15,58,1017
0:00:03.997488,-15,58,1007
0:00:03.997797,-15,60,1012
0:00:04.014137,-9,62,1010
0:00:04.020560,-13,57,1004
0:00:04.020731,-25,57,998
0:00:04.037197,-9,55,1016
0:00:04.054335,-9,54,1007
0:00:04.056552,-9,52,1010
0:00:04.060261,-14,58,1001
0:00:04.061763,-14,58,1009
0:00:04.064167,-15,61,1012
0:00:04.067914,-12,66,1011
0:00:04.083646,-9,52,1019
0:00:04.083855,-17,53,1012
0:00:04.092657,-12,53,1011
0:00:04.100634,-23,60,1028
0:00:04.101594,-9,56,1007
0:00:04.114858,-7,54,1017
0:00:04.122309,-14,55,1016
0:00:04.137324,-13,53,1017
0:00:04.139622,-15,56,1012
0:00:04.139943,-16,63,1010
0:00:04.149168,-10,61,1013
0:00:04.150505,-9,57,1012
0:00:04.159202,-13,63,1017
0:00:04.164579,-11,57,1004
0:00:04.178495,-15,54,1005
0:00:04.183260,-14,63,1012
0:00:04.195232,-13,54,1009
0:00:04.195448,-22,62,1012
0:00:04.200627,-15,59,1009
0:00:04.207740,-16,56,1008
0:00:04.214900,-9,59,996
0:00:04.220604,-13,62,1010
0:00:04.230620,-16,60,1010
0:00:04.244668,-21,48,1007
0:00:04.244835,-15,59,1017
0:00:04.250169,-3,59,1001
0:00:04.255720,-15,61,1010
0:00:04.264490,-17,59,1014
0:00:04.269768,-16,56,1013
0:00:04.276598,-8,59,1009
0:00:04.293168,-11,59,1009
0:00:04.298027,-17,62,1011
0:00:04.306208,-13,60,1014
0:00:04.308407,-13,63,1012
0:00:04.315978,-8,56,1014
0:00:04.328560,-12,57,1004
0:00:04.341923,-20,54,1015
0:00:04.342079,-15,58,1007
0:00:04.343219,-9,66,1003
0:00:04.352385,-6,58,1013
0:00:04.355441,-11,62,1012
0:00:04.360563,-13,58,1014
0:00:04.371473,-18,64,1009
